onset	duration	trial_type	response	response_time	condition
0.014	0.5	59.0	0.0	0.0	coco/000000281112.jpg
3.014	0.5	2000.0	0.0	0.0	n/a
6.013	0.5	29.0	0.0	0.0	coco/000000124419.jpg
9.013	0.5	94.0	0.0	0.0	coco/000000444495.jpg
12.013	0.5	74.0	0.0	0.0	coco/000000361051.jpg
15.013	0.5	54.0	0.0	0.0	coco/000000246218.jpg
18.012	0.5	13.0	0.0	0.0	coco/000000045672.jpg
21.012	0.5	75.0	0.0	0.0	coco/000000363403.jpg
24.012	0.5	2000.0	1.0	0.7294239997863771	n/a
27.012	0.5	36.0	0.0	0.0	coco/000000155543.jpg
30.011	0.5	88.0	0.0	0.0	coco/000000415225.jpg
33.011	0.5	66.0	0.0	0.0	coco/000000334658.jpg
36.011	0.5	9.0	0.0	0.0	coco/000000026393.jpg
39.01	0.5	85.0	0.0	0.0	coco/000000404262.jpg
42.01	0.5	58.0	0.0	0.0	coco/000000273362.jpg
45.01	0.5	79.0	0.0	0.0	coco/000000388940.jpg
48.01	0.5	84.0	0.0	0.0	coco/000000404064.jpg
51.00899999999999	0.5	4.0	0.0	0.0	coco/000000014103.jpg
54.00899999999999	0.5	35.0	0.0	0.0	coco/000000142346.jpg
57.00899999999999	0.5	63.0	0.0	0.0	coco/000000308095.jpg
60.00899999999999	0.5	1000.0	0.0	0.0	n/a
63.008	0.5	82.0	0.0	0.0	coco/000000399489.jpg
66.008	0.5	2000.0	1.0	0.98921799659729	n/a
69.008	0.5	96.0	0.0	0.0	coco/000000448701.jpg
72.007	0.5	1000.0	0.0	0.0	n/a
75.007	0.5	14.0	0.0	0.0	coco/000000057828.jpg
78.007	0.5	40.0	0.0	0.0	coco/000000176397.jpg
81.007	0.5	12.0	0.0	0.0	coco/000000036598.jpg
84.006	0.5	31.0	0.0	0.0	coco/000000129362.jpg
87.006	0.5	34.0	0.0	0.0	coco/000000137564.jpg
90.006	0.5	62.0	0.0	0.0	coco/000000302282.jpg
93.006	0.5	1000.0	0.0	0.0	n/a
96.005	0.5	57.0	0.0	0.0	coco/000000256617.jpg
99.005	0.5	25.0	0.0	0.0	coco/000000108056.jpg
102.005	0.5	2000.0	1.0	0.8163344860076904	n/a
105.005	0.5	24.0	0.0	0.0	coco/000000102858.jpg
108.021	0.5	105.0	0.0	0.0	coco/000000495388.jpg
111.021	0.5	43.0	0.0	0.0	coco/000000188631.jpg
114.004	0.5	2000.0	0.0	0.0	n/a
117.02	0.5	115.0	0.0	0.0	coco/000000540890.jpg
120.02	0.5	109.0	0.0	0.0	coco/000000526204.jpg
123.02	0.5	116.0	0.0	0.0	coco/000000548088.jpg
126.003	0.5	2000.0	0.0	0.0	n/a
129.019	0.5	32.0	0.0	0.0	coco/000000129766.jpg
132.019	0.5	93.0	0.0	0.0	coco/000000444166.jpg
135.019	0.5	23.0	0.0	0.0	coco/000000102607.jpg
138.018	0.5	104.0	0.0	0.0	coco/000000485822.jpg
141.018	0.5	111.0	0.0	0.0	coco/000000532175.jpg
144.001	0.5	1000.0	0.0	0.0	n/a
147.017	0.5	47.0	0.0	0.0	coco/000000213095.jpg
150.017	0.5	51.0	0.0	0.0	coco/000000231778.jpg
153.017	0.5	95.0	0.0	0.0	coco/000000447242.jpg
156.017	0.5	8.0	0.0	0.0	coco/000000025045.jpg
159.016	0.5	119.0	0.0	0.0	coco/000000565004.jpg
162.016	0.5	100.0	0.0	0.0	coco/000000471755.jpg
165.016	0.5	112.0	0.0	0.0	coco/000000534876.jpg
168.016	0.5	89.0	0.0	0.0	coco/000000419406.jpg
171.015	0.5	2000.0	1.0	0.8698501586914062	n/a
174.015	0.5	6.0	0.0	0.0	coco/000000023047.jpg
177.015	0.5	26.0	0.0	0.0	coco/000000112614.jpg
180.015	0.5	21.0	0.0	0.0	coco/000000084120.jpg
183.014	0.5	56.0	0.0	0.0	coco/000000254567.jpg
186.014	0.5	2000.0	0.0	0.0	n/a
189.014	0.5	102.0	0.0	0.0	coco/000000480447.jpg
192.013	0.5	50.0	0.0	0.0	coco/000000228274.jpg
195.013	0.5	2000.0	0.0	0.0	n/a
198.013	0.5	91.0	0.0	0.0	coco/000000429215.jpg
201.013	0.5	103.0	0.0	0.0	coco/000000482326.jpg
204.012	0.5	110.0	0.0	0.0	coco/000000531414.jpg
207.012	0.5	83.0	0.0	0.0	coco/000000399981.jpg
210.012	0.5	42.0	0.0	0.0	coco/000000182366.jpg
213.012	0.5	45.0	0.0	0.0	coco/000000201308.jpg
216.011	0.5	68.0	0.0	0.0	coco/000000346377.jpg
219.011	0.5	2000.0	0.0	0.0	n/a
222.011	0.5	99.0	0.0	0.0	coco/000000470762.jpg
225.01	0.5	2000.0	1.0	0.8985877037048341	n/a
228.01	0.5	27.0	0.0	0.0	coco/000000115749.jpg
231.01	0.5	107.0	0.0	0.0	coco/000000510721.jpg
234.01	0.5	78.0	0.0	0.0	coco/000000384594.jpg
237.009	0.5	1000.0	0.0	0.0	n/a
240.009	0.5	81.0	0.0	0.0	coco/000000395396.jpg
243.009	0.5	118.0	0.0	0.0	coco/000000558900.jpg
246.009	0.5	106.0	0.0	0.0	coco/000000501506.jpg
249.008	0.5	1000.0	0.0	0.0	n/a
252.008	0.5	19.0	0.0	0.0	coco/000000069480.jpg
255.008	0.5	1000.0	0.0	0.0	n/a
258.008	0.5	18.0	0.0	0.0	coco/000000065781.jpg
261.007	0.5	117.0	0.0	0.0	coco/000000556154.jpg
264.007	0.5	90.0	0.0	0.0	coco/000000426445.jpg
267.007	0.5	1000.0	0.0	0.0	n/a
270.006	0.5	101.0	0.0	0.0	coco/000000476299.jpg
273.006	0.5	3.0	0.0	0.0	coco/000000012179.jpg
276.006	0.5	2000.0	0.0	0.0	n/a
279.006	0.5	76.0	0.0	0.0	coco/000000367742.jpg
282.005	0.5	2000.0	0.0	0.0	n/a
285.005	0.5	22.0	0.0	0.0	coco/000000097882.jpg
288.005	0.5	1000.0	0.0	0.0	n/a
291.005	0.5	108.0	0.0	0.0	coco/000000524991.jpg
294.021	0.5	10.0	0.0	0.0	coco/000000029114.jpg
297.021	0.5	44.0	0.0	0.0	coco/000000194564.jpg
300.02	0.5	61.0	0.0	0.0	coco/000000299307.jpg
303.02	0.5	52.0	0.0	0.0	coco/000000238980.jpg
306.02	0.5	53.0	0.0	0.0	coco/000000244157.jpg
309.003	0.5	1000.0	0.0	0.0	n/a
312.019	0.5	30.0	0.0	0.0	coco/000000128557.jpg
315.019	0.5	46.0	0.0	0.0	coco/000000201644.jpg
318.019	0.5	16.0	0.0	0.0	coco/000000061624.jpg
321.002	0.5	1000.0	0.0	0.0	n/a
324.018	0.5	37.0	0.0	0.0	coco/000000161578.jpg
327.018	0.5	65.0	0.0	0.0	coco/000000314356.jpg
330.0180000000001	0.5	11.0	0.0	0.0	coco/000000030357.jpg
333.017	0.5	39.0	0.0	0.0	coco/000000171936.jpg
336.017	0.5	87.0	0.0	0.0	coco/000000413250.jpg
339.017	0.5	77.0	0.0	0.0	coco/000000371365.jpg
342.017	0.5	7.0	0.0	0.0	coco/000000024081.jpg
345.016	0.5	73.0	0.0	0.0	coco/000000359519.jpg
348.016	0.5	64.0	0.0	0.0	coco/000000314313.jpg
351.016	0.5	28.0	0.0	0.0	coco/000000119849.jpg
354.016	0.5	120.0	0.0	0.0	coco/000000566021.jpg
357.015	0.5	71.0	0.0	0.0	coco/000000353098.jpg
360.015	0.5	15.0	0.0	0.0	coco/000000060604.jpg
363.015	0.5	98.0	0.0	0.0	coco/000000466532.jpg
366.015	0.5	41.0	0.0	0.0	coco/000000179477.jpg
369.014	0.5	114.0	0.0	0.0	coco/000000540056.jpg
372.014	0.5	113.0	0.0	0.0	coco/000000536366.jpg
375.014	0.5	2000.0	0.0	0.0	n/a
378.013	0.5	2.0	0.0	0.0	coco/000000010948.jpg
381.013	0.5	1000.0	0.0	0.0	n/a
384.013	0.5	86.0	0.0	0.0	coco/000000411329.jpg
387.013	0.5	17.0	0.0	0.0	coco/000000064681.jpg
390.012	0.5	55.0	0.0	0.0	coco/000000252576.jpg
393.012	0.5	1.0	0.0	0.0	coco/000000007665.jpg
396.012	0.5	2000.0	1.0	0.817272424697876	n/a
399.012	0.5	80.0	0.0	0.0	coco/000000394766.jpg
402.011	0.5	1000.0	0.0	0.0	n/a
405.011	0.5	20.0	0.0	0.0	coco/000000075324.jpg
408.011	0.5	48.0	0.0	0.0	coco/000000218561.jpg
411.011	0.5	69.0	0.0	0.0	coco/000000348368.jpg
414.01	0.5	1000.0	0.0	0.0	n/a
417.01	0.5	67.0	0.0	0.0	coco/000000345701.jpg
420.01	0.5	1000.0	0.0	0.0	n/a
423.009	0.5	92.0	0.0	0.0	coco/000000443718.jpg
426.009	0.5	70.0	0.0	0.0	coco/000000353055.jpg
429.009	0.5	33.0	0.0	0.0	coco/000000131780.jpg
432.009	0.5	49.0	0.0	0.0	coco/000000222964.jpg
435.008	0.5	38.0	0.0	0.0	coco/000000170439.jpg
438.008	0.5	72.0	0.0	0.0	coco/000000354491.jpg
441.008	0.5	60.0	0.0	0.0	coco/000000283431.jpg
444.008	0.5	97.0	0.0	0.0	coco/000000451024.jpg
447.007	0.5	5.0	0.0	0.0	coco/000000020106.jpg
