onset	duration	trial_type	response	response_time	condition
0.015	0.5	104.0	0.0	0.0	coco/000000485822.jpg
3.014	0.5	117.0	0.0	0.0	coco/000000556154.jpg
6.013999999999999	0.5	38.0	0.0	0.0	coco/000000170439.jpg
9.014	0.5	2000.0	1.0	0.5650393962860107	n/a
12.014	0.5	84.0	0.0	0.0	coco/000000404064.jpg
15.013	0.5	67.0	0.0	0.0	coco/000000345701.jpg
18.012999999999995	0.5	76.0	0.0	0.0	coco/000000367742.jpg
21.013	0.5	111.0	0.0	0.0	coco/000000532175.jpg
24.013	0.5	2.0	0.0	0.0	coco/000000010948.jpg
27.013	0.5	53.0	0.0	0.0	coco/000000244157.jpg
30.012	0.5	19.0	0.0	0.0	coco/000000069480.jpg
33.012	0.5	83.0	0.0	0.0	coco/000000399981.jpg
36.012	0.5	9.0	0.0	0.0	coco/000000026393.jpg
39.012	0.5	1000.0	0.0	0.0	n/a
42.012	0.5	78.0	0.0	0.0	coco/000000384594.jpg
45.011	0.5	89.0	0.0	0.0	coco/000000419406.jpg
48.011	0.5	6.0	0.0	0.0	coco/000000023047.jpg
51.011	0.5	43.0	0.0	0.0	coco/000000188631.jpg
54.011	0.5	114.0	0.0	0.0	coco/000000540056.jpg
57.01	0.5	1000.0	0.0	0.0	n/a
60.01	0.5	7.0	0.0	0.0	coco/000000024081.jpg
63.01	0.5	18.0	0.0	0.0	coco/000000065781.jpg
66.01	0.5	2000.0	1.0	0.6899588108062744	n/a
69.01	0.5	35.0	0.0	0.0	coco/000000142346.jpg
72.009	0.5	112.0	0.0	0.0	coco/000000534876.jpg
75.009	0.5	75.0	0.0	0.0	coco/000000363403.jpg
78.009	0.5	102.0	0.0	0.0	coco/000000480447.jpg
81.009	0.5	81.0	0.0	0.0	coco/000000395396.jpg
84.008	0.5	3.0	0.0	0.0	coco/000000012179.jpg
87.008	0.5	23.0	0.0	0.0	coco/000000102607.jpg
90.008	0.5	21.0	0.0	0.0	coco/000000084120.jpg
93.008	0.5	1000.0	0.0	0.0	n/a
96.008	0.5	17.0	0.0	0.0	coco/000000064681.jpg
99.007	0.5	2000.0	1.0	0.6126754283905029	n/a
102.007	0.5	90.0	0.0	0.0	coco/000000426445.jpg
105.007	0.5	1000.0	0.0	0.0	n/a
108.007	0.5	55.0	0.0	0.0	coco/000000252576.jpg
111.007	0.5	41.0	0.0	0.0	coco/000000179477.jpg
114.006	0.5	1.0	0.0	0.0	coco/000000007665.jpg
117.006	0.5	86.0	0.0	0.0	coco/000000411329.jpg
120.006	0.5	27.0	0.0	0.0	coco/000000115749.jpg
123.006	0.5	22.0	0.0	0.0	coco/000000097882.jpg
126.005	0.5	85.0	0.0	0.0	coco/000000404262.jpg
129.005	0.5	16.0	0.0	0.0	coco/000000061624.jpg
132.005	0.5	2000.0	1.0	0.6154744625091553	n/a
135.005	0.5	54.0	0.0	0.0	coco/000000246218.jpg
138.005	0.5	2000.0	1.0	0.6400761604309082	n/a
141.02100000000004	0.5	20.0	0.0	0.0	coco/000000075324.jpg
144.02100000000004	0.5	52.0	0.0	0.0	coco/000000238980.jpg
147.02100000000004	0.5	44.0	0.0	0.0	coco/000000194564.jpg
150.02	0.5	66.0	0.0	0.0	coco/000000334658.jpg
153.004	0.5	1000.0	0.0	0.0	n/a
156.02	0.5	100.0	0.0	0.0	coco/000000471755.jpg
159.02	0.5	113.0	0.0	0.0	coco/000000536366.jpg
162.02	0.5	88.0	0.0	0.0	coco/000000415225.jpg
165.003	0.5	2000.0	1.0	0.6023378372192383	n/a
168.019	0.5	25.0	0.0	0.0	coco/000000108056.jpg
171.002	0.5	2000.0	1.0	0.5788593292236328	n/a
174.019	0.5	60.0	0.0	0.0	coco/000000283431.jpg
177.002	0.5	2000.0	1.0	0.6032981872558594	n/a
180.018	0.5	45.0	0.0	0.0	coco/000000201308.jpg
183.018	0.5	116.0	0.0	0.0	coco/000000548088.jpg
186.001	0.5	1000.0	0.0	0.0	n/a
189.018	0.5	77.0	0.0	0.0	coco/000000371365.jpg
192.017	0.5	46.0	0.0	0.0	coco/000000201644.jpg
195.017	0.5	24.0	0.0	0.0	coco/000000102858.jpg
198.017	0.5	15.0	0.0	0.0	coco/000000060604.jpg
201.017	0.5	4.0	0.0	0.0	coco/000000014103.jpg
204.017	0.5	14.0	0.0	0.0	coco/000000057828.jpg
207.016	0.5	51.0	0.0	0.0	coco/000000231778.jpg
210.016	0.5	93.0	0.0	0.0	coco/000000444166.jpg
213.016	0.5	1000.0	0.0	0.0	n/a
216.016	0.5	49.0	0.0	0.0	coco/000000222964.jpg
219.015	0.5	1000.0	0.0	0.0	n/a
222.015	0.5	34.0	0.0	0.0	coco/000000137564.jpg
225.015	0.5	110.0	0.0	0.0	coco/000000531414.jpg
228.015	0.5	115.0	0.0	0.0	coco/000000540890.jpg
231.015	0.5	109.0	0.0	0.0	coco/000000526204.jpg
234.014	0.5	58.0	0.0	0.0	coco/000000273362.jpg
237.014	0.5	50.0	0.0	0.0	coco/000000228274.jpg
240.014	0.5	11.0	0.0	0.0	coco/000000030357.jpg
243.014	0.5	39.0	0.0	0.0	coco/000000171936.jpg
246.014	0.5	65.0	0.0	0.0	coco/000000314356.jpg
249.013	0.5	2000.0	1.0	0.4916644096374512	n/a
252.013	0.5	13.0	0.0	0.0	coco/000000045672.jpg
255.013	0.5	92.0	0.0	0.0	coco/000000443718.jpg
258.013	0.5	31.0	0.0	0.0	coco/000000129362.jpg
261.012	0.5	98.0	0.0	0.0	coco/000000466532.jpg
264.012	0.5	1000.0	0.0	0.0	n/a
267.012	0.5	120.0	0.0	0.0	coco/000000566021.jpg
270.012	0.5	95.0	0.0	0.0	coco/000000447242.jpg
273.012	0.5	30.0	0.0	0.0	coco/000000128557.jpg
276.011	0.5	62.0	0.0	0.0	coco/000000302282.jpg
279.011	0.5	96.0	0.0	0.0	coco/000000448701.jpg
282.011	0.5	5.0	0.0	0.0	coco/000000020106.jpg
285.011	0.5	33.0	0.0	0.0	coco/000000131780.jpg
288.011	0.5	1000.0	0.0	0.0	n/a
291.01	0.5	59.0	0.0	0.0	coco/000000281112.jpg
294.01	0.5	72.0	0.0	0.0	coco/000000354491.jpg
297.01	0.5	87.0	0.0	0.0	coco/000000413250.jpg
300.01	0.5	40.0	0.0	0.0	coco/000000176397.jpg
303.009	0.5	56.0	0.0	0.0	coco/000000254567.jpg
306.009	0.5	28.0	0.0	0.0	coco/000000119849.jpg
309.009	0.5	70.0	0.0	0.0	coco/000000353055.jpg
312.009	0.5	105.0	0.0	0.0	coco/000000495388.jpg
315.009	0.5	97.0	0.0	0.0	coco/000000451024.jpg
318.008	0.5	2000.0	1.0	0.5986471176147461	n/a
321.008	0.5	99.0	0.0	0.0	coco/000000470762.jpg
324.008	0.5	61.0	0.0	0.0	coco/000000299307.jpg
327.008	0.5	80.0	0.0	0.0	coco/000000394766.jpg
330.00699999999995	0.5	68.0	0.0	0.0	coco/000000346377.jpg
333.00699999999995	0.5	82.0	0.0	0.0	coco/000000399489.jpg
336.00699999999995	0.5	1000.0	0.0	0.0	n/a
339.00699999999995	0.5	107.0	0.0	0.0	coco/000000510721.jpg
342.006	0.5	48.0	0.0	0.0	coco/000000218561.jpg
345.006	0.5	69.0	0.0	0.0	coco/000000348368.jpg
348.006	0.5	1000.0	0.0	0.0	n/a
351.005	0.5	8.0	0.0	0.0	coco/000000025045.jpg
354.005	0.5	119.0	0.0	0.0	coco/000000565004.jpg
357.005	0.5	74.0	0.0	0.0	coco/000000361051.jpg
360.005	0.5	91.0	0.0	0.0	coco/000000429215.jpg
363.021	0.5	12.0	0.0	0.0	coco/000000036598.jpg
366.004	0.5	2000.0	1.0	0.4916884899139404	n/a
369.021	0.5	57.0	0.0	0.0	coco/000000256617.jpg
372.02	0.5	71.0	0.0	0.0	coco/000000353098.jpg
375.003	0.5	2000.0	1.0	0.6834783554077148	n/a
378.02	0.5	103.0	0.0	0.0	coco/000000482326.jpg
381.019	0.5	64.0	0.0	0.0	coco/000000314313.jpg
384.003	0.5	2000.0	1.0	0.5882532596588135	n/a
387.019	0.5	79.0	0.0	0.0	coco/000000388940.jpg
390.019	0.5	42.0	0.0	0.0	coco/000000182366.jpg
393.018	0.5	63.0	0.0	0.0	coco/000000308095.jpg
396.018	0.5	94.0	0.0	0.0	coco/000000444495.jpg
399.001	0.5	1000.0	0.0	0.0	n/a
402.018	0.5	10.0	0.0	0.0	coco/000000029114.jpg
405.017	0.5	2000.0	1.0	0.5974187850952148	n/a
408.017	0.5	47.0	0.0	0.0	coco/000000213095.jpg
411.017	0.5	73.0	0.0	0.0	coco/000000359519.jpg
414.017	0.5	1000.0	0.0	0.0	n/a
417.016	0.5	32.0	0.0	0.0	coco/000000129766.jpg
420.016	0.5	2000.0	1.0	0.6067330837249756	n/a
423.016	0.5	36.0	0.0	0.0	coco/000000155543.jpg
426.016	0.5	106.0	0.0	0.0	coco/000000501506.jpg
429.015	0.5	37.0	0.0	0.0	coco/000000161578.jpg
432.015	0.5	1000.0	0.0	0.0	n/a
435.015	0.5	29.0	0.0	0.0	coco/000000124419.jpg
438.015	0.5	118.0	0.0	0.0	coco/000000558900.jpg
441.014	0.5	101.0	0.0	0.0	coco/000000476299.jpg
444.014	0.5	26.0	0.0	0.0	coco/000000112614.jpg
447.014	0.5	108.0	0.0	0.0	coco/000000524991.jpg
