onset	duration	trial_type	response	response_time	stim_file
0.0	1.0	717.0	1.0	1.319976806640625	imagenet/n03930313/n03930313_18562.JPEG
4.0	1.0	623.0	1.0	1.248382568359375	imagenet/n03657121/n03657121_14626.JPEG
8.0	1.0	650.0	1.0	1.2886204719543457	imagenet/n03743016/n03743016_11605.JPEG
12.0	1.0	569.0	1.0	1.3529627323150637	imagenet/n03404251/n03404251_9152.JPEG
16.0	1.0	749.0	-1.0	1.3533284664154053	imagenet/n04026417/n04026417_45993.JPEG
24.0	1.0	78.0	1.0	1.354126214981079	imagenet/n01775062/n01775062_1393.JPEG
28.0	1.0	956.0	-1.0	1.538346529006958	imagenet/n07754684/n07754684_4299.JPEG
32.0	1.0	659.0	-1.0	1.9787855148315432	imagenet/n03775071/n03775071_329.JPEG
36.0	1.0	701.0	1.0	1.3951318264007568	imagenet/n03887697/n03887697_7047.JPEG
40.0	1.0	849.0	-1.0	1.2994768619537354	imagenet/n04392985/n04392985_6140.JPEG
48.0	1.0	772.0	-1.0	1.3080646991729736	imagenet/n04125021/n04125021_6059.JPEG
52.0	1.0	484.0	-1.0	1.3085048198699951	imagenet/n02980441/n02980441_40722.JPEG
56.0	1.0	965.0	-1.0	1.3088974952697754	imagenet/n07875152/n07875152_9968.JPEG
60.0	1.0	660.0	-1.0	1.2931356430053709	imagenet/n03775546/n03775546_1698.JPEG
64.0	1.0	753.0	1.0	1.133535385131836	imagenet/n04039381/n04039381_19220.JPEG
72.0	1.0	16.0	1.0	1.454209327697754	imagenet/n01558993/n01558993_3523.JPEG
76.0	1.0	98.0	1.0	1.342564344406128	imagenet/n01847000/n01847000_4542.JPEG
80.0	1.0	805.0	1.0	1.8949971199035645	imagenet/n04254120/n04254120_960.JPEG
84.0	1.0	778.0	-1.0	1.3513615131378174	imagenet/n04141327/n04141327_1183.JPEG
88.0	1.0	573.0	-1.0	1.3996565341949463	imagenet/n03443371/n03443371_3244.JPEG
96.0	1.0	677.0	1.0	1.3524017333984375	imagenet/n03803284/n03803284_18440.JPEG
100.0	1.0	215.0	1.0	1.3367304801940918	imagenet/n02101006/n02101006_10117.JPEG
104.0	1.0	420.0	1.0	1.3851466178894043	imagenet/n02786058/n02786058_6977.JPEG
108.0	1.0	976.0	-1.0	1.305384635925293	imagenet/n09332890/n09332890_5217.JPEG
112.0	1.0	231.0	1.0	1.3296997547149658	imagenet/n02105855/n02105855_12824.JPEG
120.0	1.0	663.0	-1.0	1.290532112121582	imagenet/n03777754/n03777754_5448.JPEG
124.0	1.0	661.0	1.0	1.298800706863403	imagenet/n03776460/n03776460_21639.JPEG
128.0	1.0	232.0	1.0	1.227210283279419	imagenet/n02106030/n02106030_14708.JPEG
132.0	1.0	504.0	-1.0	1.3715312480926514	imagenet/n03062245/n03062245_13041.JPEG
136.0	1.0	918.0	-1.0	1.2911875247955322	imagenet/n06596364/n06596364_14845.JPEG
144.0	1.0	335.0	1.0	1.452017307281494	imagenet/n02346627/n02346627_20034.JPEG
148.0	1.0	248.0	1.0	1.2363905906677246	imagenet/n02109525/n02109525_72212.JPEG
152.0	1.0	613.0	1.0	1.3485877513885498	imagenet/n03599486/n03599486_14544.JPEG
156.0	1.0	280.0	1.0	1.429067850112915	imagenet/n02120079/n02120079_33121.JPEG
160.0	1.0	295.0	1.0	1.3493032455444336	imagenet/n02132136/n02132136_10944.JPEG
168.0	1.0	65.0	1.0	1.3340206146240234	imagenet/n01749939/n01749939_5847.JPEG
172.0	1.0	15.0	1.0	1.5344591140747068	imagenet/n01537544/n01537544_15018.JPEG
176.0	1.0	991.0	1.0	1.40669846534729	imagenet/n12768682/n12768682_26168.JPEG
180.0	1.0	41.0	1.0	1.31907057762146	imagenet/n01682714/n01682714_8510.JPEG
184.0	1.0	49.0	1.0	1.3354723453521729	imagenet/n01695060/n01695060_14503.JPEG
192.0	1.0	619.0	1.0	1.312133550643921	imagenet/n03633091/n03633091_22290.JPEG
196.0	1.0	503.0	-1.0	1.3042724132537842	imagenet/n03047690/n03047690_27445.JPEG
200.0	1.0	939.0	1.0	1.680818796157837	imagenet/n07715103/n07715103_2763.JPEG
204.0	1.0	96.0	1.0	1.3211843967437744	imagenet/n01843065/n01843065_1676.JPEG
208.0	1.0	99.0	1.0	1.4415955543518066	imagenet/n01855032/n01855032_6669.JPEG
216.0	1.0	361.0	1.0	1.2822279930114746	imagenet/n02444819/n02444819_9124.JPEG
220.0	1.0	265.0	1.0	1.5466482639312744	imagenet/n02113186/n02113186_14713.JPEG
224.0	1.0	538.0	1.0	1.4109580516815186	imagenet/n03218198/n03218198_26485.JPEG
228.0	1.0	604.0	1.0	1.7872843742370603	imagenet/n03538406/n03538406_3642.JPEG
232.0	1.0	75.0	1.0	1.267763376235962	imagenet/n01773797/n01773797_2546.JPEG
240.0	1.0	425.0	1.0	1.4364418983459473	imagenet/n02791270/n02791270_17533.JPEG
244.0	1.0	349.0	1.0	1.2847623825073242	imagenet/n02412080/n02412080_12160.JPEG
248.0	1.0	714.0	-1.0	1.2452092170715332	imagenet/n03924679/n03924679_11267.JPEG
252.0	1.0	641.0	-1.0	1.3014442920684814	imagenet/n03717622/n03717622_8906.JPEG
256.0	1.0	20.0	1.0	1.2937195301055908	imagenet/n01592084/n01592084_9451.JPEG
264.0	1.0	981.0	1.0	1.5665082931518557	imagenet/n09472597/n09472597_24201.JPEG
268.0	1.0	181.0	1.0	1.7429416179656982	imagenet/n02093428/n02093428_5693.JPEG
272.0	1.0	775.0	-1.0	1.32722806930542	imagenet/n04133789/n04133789_1498.JPEG
276.0	1.0	898.0	1.0	1.7195539474487305	imagenet/n04554684/n04554684_9129.JPEG
280.0	1.0	91.0	1.0	1.303985357284546	imagenet/n01820546/n01820546_5850.JPEG
288.0	1.0	22.0	1.0	1.2567262649536133	imagenet/n01608432/n01608432_14966.JPEG
292.0	1.0	34.0	1.0	1.2889766693115234	imagenet/n01664065/n01664065_4.JPEG
296.0	1.0	483.0	-1.0	1.2572975158691406	imagenet/n02979186/n02979186_10747.JPEG
300.0	1.0	598.0	-1.0	1.433703899383545	imagenet/n03527444/n03527444_21195.JPEG
304.0	1.0	756.0	-1.0	1.306011438369751	imagenet/n04044716/n04044716_8050.JPEG
312.0	1.0	563.0	-1.0	1.266784906387329	imagenet/n03388043/n03388043_5576.JPEG
316.0	1.0	165.0	1.0	1.2431869506835938	imagenet/n02088632/n02088632_3346.JPEG
320.0	1.0	364.0	1.0	1.2514257431030271	imagenet/n02454379/n02454379_17378.JPEG
324.0	1.0	790.0	-1.0	1.2517797946929932	imagenet/n04201297/n04201297_7474.JPEG
328.0	1.0	77.0	1.0	1.3161959648132324	imagenet/n01774750/n01774750_7202.JPEG
336.0	1.0	273.0	1.0	1.2841715812683103	imagenet/n02114855/n02114855_13260.JPEG
340.0	1.0	964.0	-1.0	1.39656662940979	imagenet/n07873807/n07873807_5198.JPEG
344.0	1.0	332.0	1.0	1.3489322662353516	imagenet/n02326432/n02326432_38241.JPEG
348.0	1.0	92.0	-1.0	1.3573451042175293	imagenet/n01824575/n01824575_7216.JPEG
352.0	1.0	907.0	-1.0	1.31762433052063	imagenet/n04591157/n04591157_3734.JPEG
360.0	1.0	330.0	1.0	1.2624263763427734	imagenet/n02321529/n02321529_13880.JPEG
364.0	1.0	238.0	1.0	1.6226224899291992	imagenet/n02107312/n02107312_3020.JPEG
368.0	1.0	502.0	1.0	1.3990478515625	imagenet/n03045698/n03045698_2264.JPEG
372.0	1.0	17.0	1.0	1.3994097709655762	imagenet/n01560419/n01560419_3578.JPEG
376.0	1.0	657.0	-1.0	1.6398532390594482	imagenet/n03770679/n03770679_3624.JPEG
384.0	1.0	409.0	1.0	1.5204589366912842	imagenet/n02704792/n02704792_2309.JPEG
388.0	1.0	111.0	1.0	1.432748794555664	imagenet/n01924916/n01924916_5302.JPEG
392.0	1.0	919.0	1.0	1.4492802619934082	imagenet/n06785654/n06785654_94.JPEG
396.0	1.0	923.0	-1.0	1.3294973373413086	imagenet/n07565083/n07565083_4979.JPEG
400.0	1.0	621.0	1.0	1.2819416522979736	imagenet/n03642806/n03642806_12760.JPEG
408.0	1.0	863.0	1.0	1.258580207824707	imagenet/n04456115/n04456115_5430.JPEG
412.0	1.0	527.0	-1.0	1.267040491104126	imagenet/n03179701/n03179701_51381.JPEG
416.0	1.0	466.0	-1.0	1.283202886581421	imagenet/n02916936/n02916936_685.JPEG
420.0	1.0	481.0	1.0	1.259601593017578	imagenet/n02977058/n02977058_28644.JPEG
424.0	1.0	843.0	1.0	1.2119982242584229	imagenet/n04371430/n04371430_7461.JPEG
432.0	1.0	309.0	1.0	1.26076078414917	imagenet/n02190166/n02190166_5875.JPEG
436.0	1.0	925.0	-1.0	1.2850456237792969	imagenet/n07583066/n07583066_6211.JPEG
440.0	1.0	208.0	1.0	1.4934687614440918	imagenet/n02099601/n02099601_7740.JPEG
444.0	1.0	493.0	-1.0	1.4938113689422607	imagenet/n03014705/n03014705_12090.JPEG
448.0	1.0	958.0	-1.0	1.270127773284912	imagenet/n07768694/n07768694_34443.JPEG
456.0	1.0	155.0	1.0	1.302861213684082	imagenet/n02086079/n02086079_36978.JPEG
460.0	1.0	648.0	-1.0	1.263214349746704	imagenet/n03733805/n03733805_6850.JPEG
464.0	1.0	711.0	-1.0	1.327488660812378	imagenet/n03908714/n03908714_6047.JPEG
468.0	1.0	793.0	-1.0	1.2798614501953125	imagenet/n04208210/n04208210_9571.JPEG
472.0	1.0	360.0	1.0	1.26418137550354	imagenet/n02443484/n02443484_14064.JPEG
