onset	duration	trial_type	response	response_time	stim_file
16.0	1.0	870.0	-1.0	1.6181426048278809	imagenet/n04479046/n04479046_8907.JPEG
20.0	1.0	934.0	-1.0	1.7944858074188232	imagenet/n07697313/n07697313_3414.JPEG
24.0	1.0	247.0	1.0	1.5308260917663574	imagenet/n02109047/n02109047_30357.JPEG
28.0	1.0	808.0	-1.0	2.203207731246948	imagenet/n04258138/n04258138_7885.JPEG
32.0	1.0	137.0	1.0	1.5396161079406738	imagenet/n02017213/n02017213_8648.JPEG
40.0	1.0	280.0	1.0	1.620288610458374	imagenet/n02120079/n02120079_27446.JPEG
44.0	1.0	374.0	1.0	1.5165884494781494	imagenet/n02487347/n02487347_11258.JPEG
48.0	1.0	123.0	-1.0	1.7969603538513184	imagenet/n01983481/n01983481_21067.JPEG
52.0	1.0	687.0	-1.0	1.7334399223327637	imagenet/n03843555/n03843555_13184.JPEG
56.0	1.0	260.0	1.0	1.4776315689086914	imagenet/n02112018/n02112018_3666.JPEG
64.0	1.0	745.0	-1.0	0.8304479122161865	imagenet/n04008634/n04008634_3436.JPEG
68.0	1.0	826.0	-1.0	1.9187994003295896	imagenet/n04326547/n04326547_16520.JPEG
72.0	1.0	594.0	-1.0	2.175175428390503	imagenet/n03494278/n03494278_27828.JPEG
76.0	1.0	570.0	-1.0	1.647441864013672	imagenet/n03417042/n03417042_27113.JPEG
80.0	1.0	874.0	-1.0	1.9597461223602293	imagenet/n04486054/n04486054_9330.JPEG
88.0	1.0	810.0	-1.0	2.504503965377808	imagenet/n04263257/n04263257_7125.JPEG
92.0	1.0	703.0	1.0	3.392848491668701	imagenet/n03888605/n03888605_1000.JPEG
96.0	1.0	230.0	1.0	1.313232421875	imagenet/n02105641/n02105641_11569.JPEG
100.0	1.0	165.0	1.0	0.9916927814483644	imagenet/n02088632/n02088632_4313.JPEG
104.0	1.0	170.0	1.0	1.5698397159576416	imagenet/n02090622/n02090622_9897.JPEG
112.0	1.0	13.0	1.0	1.3385341167449951	imagenet/n01532829/n01532829_13778.JPEG
116.0	1.0	473.0	1.0	1.6669213771820068	imagenet/n02951358/n02951358_29495.JPEG
120.0	1.0	439.0	-1.0	1.723257303237915	imagenet/n02815834/n02815834_4283.JPEG
124.0	1.0	919.0	-1.0	2.0276153087615967	imagenet/n06785654/n06785654_31088.JPEG
128.0	1.0	955.0	1.0	1.9559597969055176	imagenet/n07753592/n07753592_17977.JPEG
136.0	1.0	307.0	1.0	1.6687262058258057	imagenet/n02174001/n02174001_7450.JPEG
140.0	1.0	843.0	1.0	2.501065254211426	imagenet/n04371430/n04371430_16078.JPEG
144.0	1.0	112.0	1.0	2.2934393882751465	imagenet/n01930112/n01930112_4881.JPEG
148.0	1.0	520.0	-1.0	1.8770265579223635	imagenet/n03127925/n03127925_24138.JPEG
152.0	1.0	259.0	1.0	1.669426441192627	imagenet/n02111889/n02111889_1682.JPEG
160.0	1.0	59.0	1.0	1.4702346324920654	imagenet/n01737021/n01737021_7990.JPEG
164.0	1.0	243.0	1.0	1.8145294189453125	imagenet/n02108089/n02108089_40570.JPEG
168.0	1.0	31.0	1.0	2.782818078994751	imagenet/n01641577/n01641577_9491.JPEG
172.0	1.0	236.0	1.0	1.7512507438659668	imagenet/n02106662/n02106662_53274.JPEG
176.0	1.0	381.0	1.0	1.9755141735076904	imagenet/n02493509/n02493509_11366.JPEG
184.0	1.0	593.0	-1.0	1.8722381591796875	imagenet/n03492542/n03492542_29689.JPEG
188.0	1.0	953.0	-1.0	2.2165589332580566	imagenet/n07753113/n07753113_12414.JPEG
192.0	1.0	289.0	1.0	1.6489899158477783	imagenet/n02128385/n02128385_2117.JPEG
196.0	1.0	333.0	1.0	1.5532505512237549	imagenet/n02328150/n02328150_8730.JPEG
200.0	1.0	129.0	1.0	2.601623773574829	imagenet/n02002724/n02002724_832.JPEG
208.0	1.0	560.0	-1.0	1.5143163204193115	imagenet/n03376595/n03376595_10769.JPEG
212.0	1.0	904.0	1.0	1.7707278728485107	imagenet/n04584207/n04584207_8281.JPEG
216.0	1.0	804.0	-1.0	1.371056079864502	imagenet/n04252225/n04252225_21239.JPEG
220.0	1.0	111.0	1.0	1.7953696250915527	imagenet/n01924916/n01924916_10947.JPEG
224.0	1.0	713.0	-1.0	1.7637417316436768	imagenet/n03920288/n03920288_9907.JPEG
232.0	1.0	868.0	1.0	2.420539140701294	imagenet/n04467665/n04467665_33081.JPEG
236.0	1.0	421.0	1.0	1.596864938735962	imagenet/n02787622/n02787622_7107.JPEG
240.0	1.0	503.0	-1.0	3.317159414291382	imagenet/n03047690/n03047690_20173.JPEG
244.0	1.0	198.0	1.0	2.09356951713562	imagenet/n02097130/n02097130_11143.JPEG
248.0	1.0	70.0	-1.0	1.9018759727478027	imagenet/n01768244/n01768244_1320.JPEG
256.0	1.0	764.0	-1.0	1.4305527210235596	imagenet/n04086273/n04086273_28983.JPEG
260.0	1.0	116.0	1.0	1.6309254169464111	imagenet/n01950731/n01950731_16545.JPEG
264.0	1.0	451.0	1.0	1.839231252670288	imagenet/n02860847/n02860847_13277.JPEG
268.0	1.0	352.0	1.0	1.519700050354004	imagenet/n02422106/n02422106_3381.JPEG
272.0	1.0	332.0	1.0	1.351917743682861	imagenet/n02326432/n02326432_13278.JPEG
280.0	1.0	234.0	1.0	2.888613700866699	imagenet/n02106382/n02106382_4106.JPEG
284.0	1.0	684.0	1.0	2.7930924892425537	imagenet/n03838899/n03838899_31264.JPEG
288.0	1.0	377.0	1.0	1.4573218822479248	imagenet/n02489166/n02489166_8747.JPEG
292.0	1.0	946.0	1.0	1.6737189292907717	imagenet/n07720875/n07720875_6168.JPEG
296.0	1.0	276.0	1.0	1.7060329914093018	imagenet/n02116738/n02116738_469.JPEG
304.0	1.0	127.0	1.0	0.914764642715454	imagenet/n01990800/n01990800_2822.JPEG
308.0	1.0	531.0	-1.0	1.9470751285552976	imagenet/n03196217/n03196217_4417.JPEG
312.0	1.0	281.0	1.0	1.7475159168243408	imagenet/n02120505/n02120505_2008.JPEG
316.0	1.0	379.0	1.0	2.2198989391326904	imagenet/n02492035/n02492035_7371.JPEG
320.0	1.0	278.0	1.0	2.404176712036133	imagenet/n02119022/n02119022_939.JPEG
328.0	1.0	122.0	-1.0	2.308915138244629	imagenet/n01981276/n01981276_362.JPEG
332.0	1.0	261.0	1.0	1.629223346710205	imagenet/n02112137/n02112137_5551.JPEG
336.0	1.0	305.0	1.0	1.9576411247253416	imagenet/n02169497/n02169497_497.JPEG
340.0	1.0	403.0	1.0	1.885887861251831	imagenet/n02676566/n02676566_6868.JPEG
344.0	1.0	987.0	1.0	2.7502713203430176	imagenet/n12057211/n12057211_4701.JPEG
352.0	1.0	683.0	-1.0	1.3829190731048584	imagenet/n03837869/n03837869_1899.JPEG
356.0	1.0	480.0	-1.0	2.591272592544556	imagenet/n02974003/n02974003_8030.JPEG
360.0	1.0	241.0	1.0	1.6309707164764404	imagenet/n02107908/n02107908_2666.JPEG
364.0	1.0	977.0	-1.0	1.575390100479126	imagenet/n09399592/n09399592_87777.JPEG
368.0	1.0	442.0	-1.0	1.2557122707366943	imagenet/n02823750/n02823750_6731.JPEG
376.0	1.0	824.0	1.0	1.4564833641052246	imagenet/n04317175/n04317175_12291.JPEG
380.0	1.0	695.0	-1.0	1.944809913635254	imagenet/n03874293/n03874293_1735.JPEG
384.0	1.0	875.0	-1.0	2.001249551773072	imagenet/n04487081/n04487081_1149.JPEG
388.0	1.0	423.0	1.0	2.129458427429199	imagenet/n02790996/n02790996_5790.JPEG
392.0	1.0	679.0	-1.0	3.4179234504699707	imagenet/n03814639/n03814639_3638.JPEG
400.0	1.0	164.0	1.0	1.266590595245361	imagenet/n02088466/n02088466_4771.JPEG
404.0	1.0	792.0	1.0	1.8508777618408203	imagenet/n04204347/n04204347_7011.JPEG
408.0	1.0	7.0	1.0	1.9552102088928225	imagenet/n01498041/n01498041_11141.JPEG
412.0	1.0	81.0	1.0	2.6435554027557373	imagenet/n01795545/n01795545_4254.JPEG
416.0	1.0	643.0	1.0	2.0599210262298584	imagenet/n03721384/n03721384_27590.JPEG
424.0	1.0	485.0	1.0	1.3725919723510742	imagenet/n02981792/n02981792_1933.JPEG
428.0	1.0	351.0	1.0	1.5329854488372805	imagenet/n02417914/n02417914_3238.JPEG
432.0	1.0	263.0	1.0	2.1653850078582764	imagenet/n02112706/n02112706_4440.JPEG
436.0	1.0	222.0	1.0	1.5656094551086426	imagenet/n02102973/n02102973_7298.JPEG
440.0	1.0	197.0	1.0	1.4940993785858154	imagenet/n02097047/n02097047_1321.JPEG
448.0	1.0	18.0	1.0	1.3187096118927002	imagenet/n01580077/n01580077_33351.JPEG
452.0	1.0	399.0	1.0	2.0311203002929688	imagenet/n02666196/n02666196_21876.JPEG
456.0	1.0	662.0	1.0	1.8795523643493648	imagenet/n03777568/n03777568_3228.JPEG
460.0	1.0	371.0	1.0	1.9037458896636963	imagenet/n02484975/n02484975_7687.JPEG
464.0	1.0	6.0	1.0	1.368129014968872	imagenet/n01496331/n01496331_4708.JPEG
472.0	1.0	218.0	1.0	0.888864278793335	imagenet/n02102040/n02102040_4481.JPEG
476.0	1.0	771.0	-1.0	1.569200038909912	imagenet/n04120489/n04120489_4138.JPEG
480.0	1.0	678.0	-1.0	1.425633668899536	imagenet/n03804744/n03804744_5551.JPEG
484.0	1.0	459.0	-1.0	1.474006175994873	imagenet/n02892201/n02892201_837.JPEG
488.0	1.0	177.0	1.0	1.8023240566253664	imagenet/n02091831/n02091831_1795.JPEG
