onset	duration	trial_type	response	response_time	stim_file
16.0	1.0	355.0	1.0	1.4366436004638672	imagenet/n02437312/n02437312_3292.JPEG
20.0	1.0	715.0	-1.0	1.7729032039642334	imagenet/n03929660/n03929660_5449.JPEG
24.0	1.0	20.0	1.0	1.5251872539520264	imagenet/n01592084/n01592084_1075.JPEG
28.0	1.0	318.0	1.0	1.8376495838165283	imagenet/n02259212/n02259212_3137.JPEG
32.0	1.0	961.0	-1.0	1.6060035228729248	imagenet/n07836838/n07836838_27173.JPEG
40.0	1.0	436.0	-1.0	2.222630023956299	imagenet/n02808440/n02808440_462.JPEG
44.0	1.0	482.0	-1.0	1.878978967666626	imagenet/n02978881/n02978881_7035.JPEG
48.0	1.0	732.0	-1.0	1.911229133605957	imagenet/n03970156/n03970156_3908.JPEG
52.0	1.0	709.0	-1.0	1.8077037334442136	imagenet/n03903868/n03903868_5443.JPEG
56.0	1.0	254.0	1.0	1.992069721221924	imagenet/n02110806/n02110806_12942.JPEG
64.0	1.0	929.0	-1.0	2.0486717224121094	imagenet/n07614500/n07614500_16590.JPEG
68.0	1.0	1000.0	-1.0	1.8971726894378664	imagenet/n15075141/n15075141_1295.JPEG
72.0	1.0	608.0	-1.0	1.8334565162658687	imagenet/n03590841/n03590841_4068.JPEG
76.0	1.0	844.0	1.0	1.9857895374298096	imagenet/n04371774/n04371774_13229.JPEG
80.0	1.0	495.0	-1.0	1.9542005062103271	imagenet/n03017168/n03017168_48750.JPEG
88.0	1.0	910.0	-1.0	1.7629194259643557	imagenet/n04596742/n04596742_39645.JPEG
92.0	1.0	564.0	-1.0	1.8192133903503416	imagenet/n03388183/n03388183_4584.JPEG
96.0	1.0	523.0	1.0	1.8356189727783203	imagenet/n03134739/n03134739_2969.JPEG
100.0	1.0	947.0	1.0	1.955963134765625	imagenet/n07730033/n07730033_14965.JPEG
104.0	1.0	760.0	-1.0	1.916318416595459	imagenet/n04069434/n04069434_9448.JPEG
112.0	1.0	502.0	-1.0	1.7009310722351074	imagenet/n03045698/n03045698_5633.JPEG
116.0	1.0	903.0	1.0	2.229271650314331	imagenet/n04579432/n04579432_7913.JPEG
120.0	1.0	303.0	1.0	1.845695734024048	imagenet/n02167151/n02167151_5024.JPEG
124.0	1.0	777.0	1.0	1.5820512771606443	imagenet/n04141076/n04141076_51963.JPEG
128.0	1.0	557.0	-1.0	1.6464016437530518	imagenet/n03347037/n03347037_17019.JPEG
136.0	1.0	515.0	-1.0	1.4870061874389648	imagenet/n03124043/n03124043_1684.JPEG
140.0	1.0	131.0	1.0	1.9514508247375488	imagenet/n02007558/n02007558_21635.JPEG
144.0	1.0	598.0	-1.0	1.775881290435791	imagenet/n03527444/n03527444_22834.JPEG
148.0	1.0	62.0	1.0	1.4082255363464355	imagenet/n01742172/n01742172_4377.JPEG
152.0	1.0	871.0	-1.0	1.9518201351165767	imagenet/n04482393/n04482393_25442.JPEG
160.0	1.0	39.0	1.0	0.9916746616363524	imagenet/n01675722/n01675722_6200.JPEG
164.0	1.0	373.0	1.0	1.4809622764587402	imagenet/n02486410/n02486410_7615.JPEG
168.0	1.0	823.0	1.0	1.425175428390503	imagenet/n04311174/n04311174_9950.JPEG
172.0	1.0	33.0	1.0	1.4975669384002686	imagenet/n01644900/n01644900_727.JPEG
176.0	1.0	579.0	-1.0	1.713897943496704	imagenet/n03450230/n03450230_2083.JPEG
184.0	1.0	573.0	-1.0	1.7547380924224854	imagenet/n03443371/n03443371_20249.JPEG
188.0	1.0	831.0	-1.0	1.9790642261505127	imagenet/n04336792/n04336792_10719.JPEG
192.0	1.0	28.0	1.0	1.7714474201202393	imagenet/n01631663/n01631663_17175.JPEG
196.0	1.0	948.0	1.0	2.16374945640564	imagenet/n07734744/n07734744_15606.JPEG
200.0	1.0	603.0	1.0	1.8360052108764648	imagenet/n03535780/n03535780_29372.JPEG
208.0	1.0	963.0	-1.0	1.804737567901612	imagenet/n07871810/n07871810_2389.JPEG
212.0	1.0	790.0	-1.0	1.7250511646270752	imagenet/n04201297/n04201297_6607.JPEG
216.0	1.0	510.0	-1.0	2.0055055618286133	imagenet/n03089624/n03089624_1087.JPEG
220.0	1.0	742.0	-1.0	1.9818782806396484	imagenet/n03998194/n03998194_7429.JPEG
224.0	1.0	391.0	1.0	3.942254066467285	imagenet/n02526121/n02526121_6645.JPEG
232.0	1.0	633.0	-1.0	1.718778371810913	imagenet/n03691459/n03691459_55847.JPEG
236.0	1.0	649.0	-1.0	1.7592780590057373	imagenet/n03742115/n03742115_6488.JPEG
240.0	1.0	346.0	1.0	1.5355174541473389	imagenet/n02403003/n02403003_4713.JPEG
244.0	1.0	364.0	1.0	1.583876132965088	imagenet/n02454379/n02454379_10539.JPEG
248.0	1.0	869.0	-1.0	1.816329002380371	imagenet/n04476259/n04476259_14340.JPEG
256.0	1.0	178.0	1.0	1.2809181213378906	imagenet/n02092002/n02092002_5845.JPEG
260.0	1.0	761.0	1.0	1.4173130989074707	imagenet/n04070727/n04070727_11717.JPEG
264.0	1.0	952.0	1.0	3.2577292919158936	imagenet/n07749582/n07749582_1662.JPEG
268.0	1.0	242.0	1.0	2.370104551315308	imagenet/n02108000/n02108000_6771.JPEG
272.0	1.0	704.0	-1.0	1.7623653411865234	imagenet/n03891251/n03891251_3664.JPEG
280.0	1.0	506.0	-1.0	0.8510146141052246	imagenet/n03063689/n03063689_6894.JPEG
284.0	1.0	670.0	-1.0	1.515424728393555	imagenet/n03788365/n03788365_11792.JPEG
288.0	1.0	845.0	-1.0	1.7797858715057373	imagenet/n04372370/n04372370_14072.JPEG
292.0	1.0	483.0	-1.0	1.75608491897583	imagenet/n02979186/n02979186_11916.JPEG
296.0	1.0	55.0	1.0	2.076437473297119	imagenet/n01729322/n01729322_5446.JPEG
304.0	1.0	865.0	-1.0	1.837141036987305	imagenet/n04461696/n04461696_72.JPEG
308.0	1.0	902.0	-1.0	1.5494821071624756	imagenet/n04579145/n04579145_1092.JPEG
312.0	1.0	918.0	-1.0	1.965876579284668	imagenet/n06596364/n06596364_699.JPEG
316.0	1.0	986.0	1.0	1.6622273921966553	imagenet/n11939491/n11939491_9983.JPEG
320.0	1.0	392.0	1.0	1.8145744800567627	imagenet/n02536864/n02536864_33969.JPEG
328.0	1.0	322.0	1.0	1.1992554664611816	imagenet/n02276258/n02276258_1248.JPEG
332.0	1.0	120.0	1.0	1.4797122478485107	imagenet/n01978455/n01978455_1830.JPEG
336.0	1.0	967.0	-1.0	0.9199130535125732	imagenet/n07892512/n07892512_5477.JPEG
340.0	1.0	24.0	1.0	1.3682873249053955	imagenet/n01616318/n01616318_9351.JPEG
344.0	1.0	411.0	-1.0	1.6887171268463137	imagenet/n02727426/n02727426_19261.JPEG
352.0	1.0	405.0	-1.0	1.5055181980133057	imagenet/n02690373/n02690373_7944.JPEG
356.0	1.0	970.0	-1.0	2.3370485305786133	imagenet/n07932039/n07932039_6782.JPEG
360.0	1.0	853.0	-1.0	2.2094571590423584	imagenet/n04409515/n04409515_7841.JPEG
364.0	1.0	151.0	1.0	2.4098100662231445	imagenet/n02077923/n02077923_7995.JPEG
368.0	1.0	84.0	1.0	1.9061925411224363	imagenet/n01798484/n01798484_10140.JPEG
376.0	1.0	425.0	1.0	1.938965082168579	imagenet/n02791270/n02791270_30392.JPEG
380.0	1.0	958.0	1.0	2.0752105712890625	imagenet/n07768694/n07768694_8073.JPEG
384.0	1.0	551.0	-1.0	1.5795636177062988	imagenet/n03297495/n03297495_5341.JPEG
388.0	1.0	959.0	-1.0	2.139838457107544	imagenet/n07802026/n07802026_1703.JPEG
392.0	1.0	980.0	-1.0	2.1402692794799805	imagenet/n09468604/n09468604_9678.JPEG
400.0	1.0	395.0	1.0	1.348944902420044	imagenet/n02640242/n02640242_38593.JPEG
404.0	1.0	415.0	-1.0	1.5653479099273682	imagenet/n02769748/n02769748_16086.JPEG
408.0	1.0	893.0	-1.0	1.6377527713775637	imagenet/n04548280/n04548280_1132.JPEG
412.0	1.0	17.0	1.0	1.2300403118133545	imagenet/n01560419/n01560419_39.JPEG
416.0	1.0	433.0	1.0	1.6703660488128662	imagenet/n02804610/n02804610_17835.JPEG
424.0	1.0	363.0	1.0	1.2791430950164795	imagenet/n02447366/n02447366_7007.JPEG
428.0	1.0	488.0	1.0	1.8394100666046145	imagenet/n02992529/n02992529_3439.JPEG
432.0	1.0	884.0	-1.0	1.5837295055389404	imagenet/n04522168/n04522168_50417.JPEG
436.0	1.0	532.0	-1.0	2.600114345550537	imagenet/n03197337/n03197337_4479.JPEG
440.0	1.0	213.0	1.0	1.656536102294922	imagenet/n02100735/n02100735_1573.JPEG
448.0	1.0	597.0	-1.0	1.1851272583007812	imagenet/n03498962/n03498962_5759.JPEG
452.0	1.0	212.0	1.0	1.4335200786590576	imagenet/n02100583/n02100583_26884.JPEG
456.0	1.0	534.0	-1.0	1.857923984527588	imagenet/n03207743/n03207743_18587.JPEG
460.0	1.0	686.0	-1.0	2.3382253646850586	imagenet/n03841143/n03841143_2027.JPEG
464.0	1.0	347.0	1.0	1.7626352310180664	imagenet/n02408429/n02408429_7655.JPEG
472.0	1.0	668.0	1.0	1.4352262020111084	imagenet/n03787032/n03787032_293.JPEG
476.0	1.0	426.0	-1.0	1.6996209621429443	imagenet/n02793495/n02793495_5030.JPEG
480.0	1.0	378.0	1.0	1.6599812507629397	imagenet/n02490219/n02490219_4831.JPEG
484.0	1.0	697.0	-1.0	1.7563414573669434	imagenet/n03876231/n03876231_5370.JPEG
488.0	1.0	846.0	1.0	1.516706466674805	imagenet/n04376876/n04376876_658.JPEG
